File:              	C:\Qtrac\Data\Daniel M Sørensen\MScan multicentre study\Data from centres\Edmonton\MSCC00304A.QZD
Name:              	CA.EDM.NC.5.2
Protocol:          	MSCAN-R2
Date:              	4/3/20
Start time:        	11:59:27
Age:               	53
Sex:               	F
Temperature:       	32.9
S/R sites:         	Median Wr-APB
NC/disease:        	NC
Operator:          	KJ
Comments:
M-SCAN DATA (6.7-2.6m)
Scanpts: 79, 84, 431, 452
Stim. (mA)     	Amp. (mV)
MS.1           	9              	11.261
MS.2           	9              	11.257
MS.3           	9              	11.257
MS.4           	9              	11.235
MS.5           	9              	11.235
MS.6           	9              	11.233
MS.7           	9              	11.253
MS.8           	9              	11.249
MS.9           	9              	11.249
MS.10          	9              	11.253
MS.11          	9              	11.271
MS.12          	9              	11.265
MS.13          	9              	11.271
MS.14          	9              	11.257
MS.15          	9              	11.257
MS.16          	9              	11.257
MS.17          	9              	11.255
MS.18          	9              	11.249
MS.19          	9              	11.255
MS.20          	9              	11.259
MS.21          	9              	11.251
MS.22          	9              	11.255
MS.23          	9              	11.253
MS.24          	8.965          	11.251
MS.25          	8.945          	11.233
MS.26          	8.927          	11.257
MS.27          	8.91           	11.247
MS.28          	8.892          	11.245
MS.29          	8.875          	11.251
MS.30          	8.858          	11.259
MS.31          	8.84           	11.249
MS.32          	8.823          	11.245
MS.33          	8.805          	11.259
MS.34          	8.787          	11.257
MS.35          	8.77           	11.243
MS.36          	8.752          	11.243
MS.37          	8.735          	11.245
MS.38          	8.717          	11.259
MS.39          	8.7            	11.255
MS.40          	8.682          	11.235
MS.41          	8.665          	11.253
MS.42          	8.648          	11.237
MS.43          	8.63           	11.243
MS.44          	8.613          	11.237
MS.45          	8.595          	11.237
MS.46          	8.577          	11.253
MS.47          	8.56           	11.229
MS.48          	8.545          	11.233
MS.49          	8.528          	11.235
MS.50          	8.51           	11.229
MS.51          	8.492          	11.235
MS.52          	8.475          	11.235
MS.53          	8.46           	11.229
MS.54          	8.443          	11.237
MS.55          	8.425          	11.233
MS.56          	8.408          	11.221
MS.57          	8.392          	11.221
MS.58          	8.375          	11.223
MS.59          	8.358          	11.217
MS.60          	8.342          	11.217
MS.61          	8.325          	11.221
MS.62          	8.307          	11.229
MS.63          	8.292          	11.251
MS.64          	8.275          	11.241
MS.65          	8.257          	11.247
MS.66          	8.242          	11.251
MS.67          	8.225          	11.251
MS.68          	8.21           	11.255
MS.69          	8.193          	11.259
MS.70          	8.175          	11.261
MS.71          	8.16           	11.247
MS.72          	8.142          	11.255
MS.73          	8.127          	11.241
MS.74          	8.11           	11.231
MS.75          	8.095          	11.243
MS.76          	8.077          	11.241
MS.77          	8.062          	11.237
MS.78          	8.047          	11.245
MS.79          	8.03           	11.235
MS.80          	8.015          	11.239
MS.81          	7.997          	11.227
MS.82          	7.982          	11.223
MS.83          	7.967          	11.237
MS.84          	7.95           	11.233
MS.85          	7.935          	11.227
MS.86          	7.918          	11.233
MS.87          	7.902          	11.227
MS.88          	7.887          	11.217
MS.89          	7.872          	11.225
MS.90          	7.855          	11.215
MS.91          	7.84           	11.217
MS.92          	7.825          	11.231
MS.93          	7.807          	11.209
MS.94          	7.793          	11.203
MS.95          	7.777          	11.205
MS.96          	7.762          	11.205
MS.97          	7.747          	11.207
MS.98          	7.73           	11.197
MS.99          	7.715          	11.205
MS.100         	7.7            	11.215
MS.101         	7.685          	11.201
MS.102         	7.67           	11.211
MS.103         	7.655          	11.197
MS.104         	7.637          	11.197
MS.105         	7.622          	11.217
MS.106         	7.607          	11.205
MS.107         	7.592          	11.201
MS.108         	7.577          	11.203
MS.109         	7.562          	11.203
MS.110         	7.547          	11.205
MS.111         	7.532          	11.211
MS.112         	7.517          	11.197
MS.113         	7.503          	11.215
MS.114         	7.487          	11.195
MS.115         	7.472          	11.213
MS.116         	7.457          	11.201
MS.117         	7.442          	11.205
MS.118         	7.427          	11.203
MS.119         	7.412          	11.197
MS.120         	7.398          	11.213
MS.121         	7.382          	11.203
MS.122         	7.367          	11.207
MS.123         	7.355          	11.205
MS.124         	7.34           	11.215
MS.125         	7.325          	11.203
MS.126         	7.31           	11.201
MS.127         	7.295          	11.209
MS.128         	7.28           	11.16
MS.129         	7.265          	11.219
MS.130         	7.253          	11.223
MS.131         	7.237          	11.215
MS.132         	7.222          	11.219
MS.133         	7.207          	11.215
MS.134         	7.195          	11.211
MS.135         	7.18           	11.148
MS.136         	7.165          	11.16
MS.137         	7.15           	11.162
MS.138         	7.137          	11.164
MS.139         	7.122          	11.158
MS.140         	7.108          	11.156
MS.141         	7.095          	11.158
MS.142         	7.08           	11.156
MS.143         	7.065          	11.158
MS.144         	7.052          	11.164
MS.145         	7.037          	11.158
MS.146         	7.023          	11.156
MS.147         	7.01           	11.142
MS.148         	6.995          	11.122
MS.149         	6.98           	11.167
MS.150         	6.967          	11.171
MS.151         	6.952          	11.162
MS.152         	6.94           	11.162
MS.153         	6.925          	11.122
MS.154         	6.912          	11.16
MS.155         	6.898          	11.14
MS.156         	6.885          	11.177
MS.157         	6.87           	11.175
MS.158         	6.858          	11.179
MS.159         	6.842          	11.169
MS.160         	6.83           	11.177
MS.161         	6.815          	11.128
MS.162         	6.802          	11.09
MS.163         	6.787          	10.985
MS.164         	6.775          	10.987
MS.165         	6.762          	11.106
MS.166         	6.747          	10.939
MS.167         	6.735          	11.15
MS.168         	6.72           	11.102
MS.169         	6.707          	11.126
MS.170         	6.695          	10.953
MS.171         	6.68           	10.897
MS.172         	6.668          	10.909
MS.173         	6.655          	10.979
MS.174         	6.64           	10.895
MS.175         	6.628          	10.832
MS.176         	6.615          	10.754
MS.177         	6.6            	10.651
MS.178         	6.587          	10.842
MS.179         	6.575          	10.76
MS.180         	6.562          	10.752
MS.181         	6.547          	10.578
MS.182         	6.535          	10.574
MS.183         	6.523          	10.798
MS.184         	6.51           	10.568
MS.185         	6.495          	10.286
MS.186         	6.483          	10.248
MS.187         	6.47           	10.377
MS.188         	6.457          	10.065
MS.189         	6.445          	10.28
MS.190         	6.432          	10.536
MS.191         	6.418          	10.516
MS.192         	6.405          	10.492
MS.193         	6.392          	9.926
MS.194         	6.38           	10.109
MS.195         	6.367          	9.888
MS.196         	6.355          	10.123
MS.197         	6.342          	10.131
MS.198         	6.33           	10.024
MS.199         	6.317          	9.946
MS.200         	6.305          	10.151
MS.201         	6.293          	9.652
MS.202         	6.28           	9.835
MS.203         	6.267          	9.692
MS.204         	6.255          	9.456
MS.205         	6.242          	9.332
MS.206         	6.23           	9.698
MS.207         	6.217          	9.404
MS.208         	6.205          	9.376
MS.209         	6.192          	9.019
MS.210         	6.18           	9.404
MS.211         	6.168          	9.086
MS.212         	6.155          	9.086
MS.213         	6.142          	8.983
MS.214         	6.13           	8.451
MS.215         	6.117          	8.661
MS.216         	6.105          	8.409
MS.217         	6.092          	8.407
MS.218         	6.082          	8.323
MS.219         	6.07           	8.345
MS.220         	6.057          	7.845
MS.221         	6.045          	8.194
MS.222         	6.032          	7.95
MS.223         	6.02           	7.674
MS.224         	6.01           	7.466
MS.225         	5.997          	7.712
MS.226         	5.985          	7.384
MS.227         	5.972          	8.264
MS.228         	5.96           	7.785
MS.229         	5.95           	7.1
MS.230         	5.938          	6.78
MS.231         	5.925          	7.138
MS.232         	5.912          	7.039
MS.233         	5.902          	7.048
MS.234         	5.89           	6.828
MS.235         	5.878          	6.818
MS.236         	5.867          	6.999
MS.237         	5.855          	6.637
MS.238         	5.842          	6.494
MS.239         	5.83           	6.429
MS.240         	5.82           	6.558
MS.241         	5.807          	6.351
MS.242         	5.797          	6.083
MS.243         	5.785          	6.312
MS.244         	5.773          	6.345
MS.245         	5.762          	6.151
MS.246         	5.75           	5.889
MS.247         	5.737          	5.821
MS.248         	5.727          	6.292
MS.249         	5.715          	5.932
MS.250         	5.705          	5.871
MS.251         	5.692          	5.688
MS.252         	5.682          	5.734
MS.253         	5.67           	5.229
MS.254         	5.66           	5.352
MS.255         	5.648          	4.904
MS.256         	5.637          	5.773
MS.257         	5.625          	5.241
MS.258         	5.615          	5.096
MS.259         	5.602          	4.969
MS.260         	5.592          	4.868
MS.261         	5.58           	4.828
MS.262         	5.57           	4.498
MS.263         	5.557          	4.304
MS.264         	5.547          	4.506
MS.265         	5.535          	4.451
MS.266         	5.525          	4.25
MS.267         	5.512          	4.328
MS.268         	5.503          	4.125
MS.269         	5.492          	4.032
MS.270         	5.48           	3.708
MS.271         	5.47           	3.575
MS.272         	5.46           	3.662
MS.273         	5.447          	3.414
MS.274         	5.438          	3.472
MS.275         	5.425          	3.356
MS.276         	5.415          	3.104
MS.277         	5.405          	3.128
MS.278         	5.392          	2.683
MS.279         	5.382          	3.186
MS.280         	5.372          	2.753
MS.281         	5.362          	2.804
MS.282         	5.35           	2.496
MS.283         	5.34           	2.524
MS.284         	5.33           	2.566
MS.285         	5.318          	2.171
MS.286         	5.307          	2.222
MS.287         	5.297          	2.371
MS.288         	5.287          	1.855
MS.289         	5.277          	1.716
MS.290         	5.265          	1.936
MS.291         	5.255          	1.791
MS.292         	5.245          	1.787
MS.293         	5.235          	1.627
MS.294         	5.225          	1.674
MS.295         	5.213          	1.638
MS.296         	5.202          	1.72
MS.297         	5.193          	1.619
MS.298         	5.182          	1.499
MS.299         	5.172          	1.521
MS.300         	5.162          	1.47
MS.301         	5.15           	1.507
MS.302         	5.14           	1.559
MS.303         	5.13           	1.227
MS.304         	5.12           	1.235
MS.305         	5.11           	1.356
MS.306         	5.1            	1.311
MS.307         	5.09           	1.291
MS.308         	5.08           	1.233
MS.309         	5.07           	1.206
MS.310         	5.06           	1.243
MS.311         	5.05           	1.178
MS.312         	5.04           	1.13
MS.313         	5.03           	1.092
MS.314         	5.02           	1.08
MS.315         	5.01           	1.132
MS.316         	5              	1.076
MS.317         	4.99           	1.106
MS.318         	4.98           	0.933
MS.319         	4.97           	1.039
MS.320         	4.96           	0.987
MS.321         	4.95           	1.027
MS.322         	4.94           	0.963
MS.323         	4.93           	0.951
MS.324         	4.92           	0.896
MS.325         	4.91           	0.864
MS.326         	4.9            	0.971
MS.327         	4.89           	0.906
MS.328         	4.88           	0.818
MS.329         	4.87           	0.763
MS.330         	4.86           	0.81
MS.331         	4.85           	0.9
MS.332         	4.842          	0.375
MS.333         	4.832          	0.669
MS.334         	4.822          	0.775
MS.335         	4.812          	0.677
MS.336         	4.802          	0.645
MS.337         	4.793          	0.538
MS.338         	4.782          	0.596
MS.339         	4.775          	0.606
MS.340         	4.765          	0.643
MS.341         	4.755          	0.558
MS.342         	4.745          	0.479
MS.343         	4.735          	0.342
MS.344         	4.727          	0.395
MS.345         	4.717          	0.459
MS.346         	4.707          	0.397
MS.347         	4.697          	0.5
MS.348         	4.69           	0.216
MS.349         	4.68           	0.415
MS.350         	4.67           	0.205
MS.351         	4.66           	0.497
MS.352         	4.652          	0.135
MS.353         	4.642          	0.387
MS.354         	4.632          	0.278
MS.355         	4.625          	0.139
MS.356         	4.615          	0.377
MS.357         	4.605          	0.22
MS.358         	4.595          	0.163
MS.359         	4.588          	0.121
MS.360         	4.577          	0.101
MS.361         	4.568          	0.3
MS.362         	4.56           	0.107
MS.363         	4.55           	0.081
MS.364         	4.543          	0.125
MS.365         	4.532          	0.119
MS.366         	4.523          	0.073
MS.367         	4.515          	0.077
MS.368         	4.505          	0.042
MS.369         	4.495          	0.07
MS.370         	4.487          	0.083
MS.371         	4.477          	0.075
MS.372         	4.47           	0.042
MS.373         	4.46           	0.006
MS.374         	4.452          	0.01
MS.375         	4.443          	0.066
MS.376         	4.432          	0.058
MS.377         	4.425          	0.07
MS.378         	4.415          	0.079
MS.379         	4.407          	0.04
MS.380         	4.398          	0.026
MS.381         	4.39           	0.032
MS.382         	4.38           	0.093
MS.383         	4.372          	0.04
MS.384         	4.362          	0.018
MS.385         	4.355          	0.008
MS.386         	4.345          	0.048
MS.387         	4.338          	0.018
MS.388         	4.327          	0.01
MS.389         	4.32           	0.012
MS.390         	4.31           	0.006
MS.391         	4.302          	0.006
MS.392         	4.295          	0.06
MS.393         	4.285          	0.075
MS.394         	4.277          	0.016
MS.395         	4.267          	0.016
MS.396         	4.26           	0.014
MS.397         	4.253          	0.014
MS.398         	4.242          	0.016
MS.399         	4.235          	0.01
MS.400         	4.225          	0.016
MS.401         	4.217          	0.016
MS.402         	4.21           	0.014
MS.403         	4.2            	0.01
MS.404         	4.193          	0.016
MS.405         	4.185          	0.012
MS.406         	4.175          	0.01
MS.407         	4.168          	0.006
MS.408         	4.16           	0.064
MS.409         	4.15           	0.014
MS.410         	4.142          	0.004
MS.411         	4.135          	0.006
MS.412         	4.125          	0.002
MS.413         	4.117          	0.004
MS.414         	4.11           	0.008
MS.415         	4.1            	0.002
MS.416         	4.092          	0.012
MS.417         	4.085          	0.01
MS.418         	4.077          	0.006
MS.419         	4.068          	0.012
MS.420         	4.06           	0.002
MS.421         	4.052          	0.01
MS.422         	4.045          	0.006
MS.423         	4.035          	0.006
MS.424         	4.027          	0.004
MS.425         	4.02           	0.004
MS.426         	4.012          	0.004
MS.427         	4.003          	0.002
MS.428         	3.995          	0.004
MS.429         	3.987          	0.004
MS.430         	3.98           	0.004
MS.431         	3.972          	0.004
MS.432         	3.965          	0.006
MS.433         	3.955          	0.006
MS.434         	3.947          	0.008
MS.435         	3.94           	0.006
MS.436         	3.932          	0.006
MS.437         	3.925          	0.006
MS.438         	3.918          	0.008
MS.439         	3.91           	0.006
MS.440         	3.9            	0.006
MS.441         	3.892          	0.004
MS.442         	3.885          	0.006
MS.443         	3.877          	0.008
MS.444         	3.87           	0.008
MS.445         	3.862          	0.006
MS.446         	3.855          	0.004
MS.447         	3.847          	0.004
MS.448         	3.84           	0.006
MS.449         	3.832          	0.008
MS.450         	3.822          	0.006
MS.451         	3.815          	0.006
MS.452         	3.807          	0.006
DERIVED EXCITABILITY VARIABLES
Program = QTracP 3/4/2020
Threshold method = 6 (optimised for CAP, using data for present condition only)
SR method = 1 (using actual data values)
6.                 	0.000               	Peak response\(mV)
9.                 	32.9                	Temperature ( C)
17.                	53                  	Age (years)
18.                	2                   	Sex (M=1, F=2)

EXTRA VARIABLES

MScPeak(mV) = 11.25
MScS5(mA) = 4.8
MScS50(mA) = 5.65
MScS95(mA) = 6.56
MScNSteps = 7
MScSteps(%) = 17.9
MScStepMax(%) = 3
MScD50 = 31
MScSlope = 7.85
MSFPeakAmp(mV) = 11.2
MSFNUnits = 153
MSFMeanUnitAmp(uV) = 73.4
MSFHuntTime(m) = 2.25
MSFError(%) = 5.83
MSFNLarge = 37.72
MSFMedianAmp(%) = 0.485
MSFMedianAmp(mV) = 0.0544
MSFHalfAmpAmp(%) = 0.767
MSFHalfAmpAmp(mV) = 0.0861
MSFLargestAmp(%) = 2.95
MSFLargestAmp(mV) = 0.331
MSFMeanRS(%) = 2
MSFOpts = 10106121
MScDuration(min) = 4.1
MSFTraces = 374
MSFSizeLimit(uV) = 28.1
MSFLimitType = 1
MSFSmallestAmp(uV) = 28.4

EXTRA WAVEFORMS


!MScan Model
!153
	1	4.35	0.35	2
	2	4.52	0.44	2
	3	4.54	0.25	2
	4	4.58	0.55	2
	5	4.67	1.42	2
	6	4.72	0.87	2
	7	4.74	0.39	2
	8	4.75	0.26	2
	9	4.84	1.75	2
	10	4.87	0.8	2
	11	4.89	0.8	2
	12	4.92	0.33	2
	13	4.93	0.26	2
	14	4.95	0.26	2
	15	4.97	0.39	2
	16	5	0.37	2
	17	5.02	0.36	2
	18	5.04	0.34	2
	19	5.06	0.53	2
	20	5.08	0.38	2
	21	5.1	0.38	2
	22	5.11	0.41	2
	23	5.12	0.28	2
	24	5.14	0.28	2
	25	5.15	0.34	2
	26	5.15	0.25	2
	27	5.17	0.41	2
	28	5.18	0.39	2
	29	5.19	0.35	2
	30	5.2	0.38	2
	31	5.22	0.51	2
	32	5.23	0.4	2
	33	5.25	0.55	2
	34	5.26	0.66	2
	35	5.27	0.49	2
	36	5.28	0.51	2
	37	5.28	0.35	2
	38	5.29	0.35	2
	39	5.29	0.35	2
	40	5.3	0.37	2
	41	5.3	0.41	2
	42	5.31	0.41	2
	43	5.31	0.41	2
	44	5.32	0.42	2
	45	5.32	0.48	2
	46	5.33	0.48	2
	47	5.34	0.48	2
	48	5.34	0.48	2
	49	5.35	0.48	2
	50	5.35	0.48	2
	51	5.36	0.48	2
	52	5.37	0.56	2
	53	5.37	0.59	2
	54	5.38	0.59	2
	55	5.39	0.71	2
	56	5.4	0.61	2
	57	5.4	0.54	2
	58	5.41	0.54	2
	59	5.42	0.54	2
	60	5.43	0.51	2
	61	5.43	0.32	2
	62	5.43	0.32	2
	63	5.44	0.34	2
	64	5.44	0.27	2
	65	5.44	0.27	2
	66	5.44	0.27	2
	67	5.45	0.45	2
	68	5.45	0.37	2
	69	5.46	0.37	2
	70	5.46	0.4	2
	71	5.47	0.42	2
	72	5.47	0.55	2
	73	5.48	0.42	2
	74	5.48	0.42	2
	75	5.49	0.42	2
	76	5.49	0.42	2
	77	5.49	0.34	2
	78	5.5	0.27	2
	79	5.5	0.27	2
	80	5.51	0.33	2
	81	5.51	0.33	2
	82	5.52	0.36	2
	83	5.52	0.36	2
	84	5.52	0.36	2
	85	5.53	0.36	2
	86	5.53	0.36	2
	87	5.54	0.76	2
	88	5.55	1.09	2
	89	5.57	0.93	2
	90	5.58	0.95	2
	91	5.6	1.41	2
	92	5.61	1.36	2
	93	5.63	1.48	2
	94	5.65	1.01	2
	95	5.68	2.24	2
	96	5.7	1.52	2
	97	5.72	1.33	2
	98	5.74	1.36	2
	99	5.76	0.87	2
	100	5.77	0.38	2
	101	5.78	0.36	2
	102	5.79	0.35	2
	103	5.8	0.35	2
	104	5.8	0.48	2
	105	5.82	1.17	2
	106	5.85	1.27	2
	107	5.87	1.12	2
	108	5.9	2.04	2
	109	5.94	2.95	2
	110	5.99	2.37	2
	111	6	0.85	2
	112	6.01	0.34	2
	113	6.01	0.32	2
	114	6.02	0.3	2
	115	6.03	0.51	2
	116	6.03	0.34	2
	117	6.04	0.45	2
	118	6.05	0.46	2
	119	6.05	0.52	2
	120	6.06	0.52	2
	121	6.07	0.52	2
	122	6.07	0.52	2
	123	6.08	0.5	2
	124	6.08	0.54	2
	125	6.09	0.6	2
	126	6.1	0.56	2
	127	6.1	0.55	2
	128	6.11	0.55	2
	129	6.12	0.56	2
	130	6.12	1.07	2
	131	6.13	0.83	2
	132	6.14	0.65	2
	133	6.15	0.55	2
	134	6.16	0.54	2
	135	6.17	0.69	2
	136	6.2	1.12	2
	137	6.21	0.83	2
	138	6.23	1.12	2
	139	6.25	0.99	2
	140	6.27	1.09	2
	141	6.3	1.16	2
	142	6.34	1.77	2
	143	6.43	1.95	2
	144	6.5	2.23	2
	145	6.53	0.54	2
	146	6.55	0.64	2
	147	6.57	0.54	2
	148	6.59	0.49	2
	149	6.61	0.4	2
	150	6.63	0.37	2
	151	6.69	1.21	2
	152	6.78	1.13	2
	153	7.18	0.77	2

